{
  "resourceType": "Bundle",
  "id": "4d8684f1-e379-4cb2-adcb-41ab1a543206",
  "meta": {
    "lastUpdated": "2022-06-14T13:54:15.203+00:00"
  },
  "type": "searchset",
  "total": 2,
  "link": [
    {
      "relation": "self",
      "url": "https://prescriptionserver.telematik/ChargeItem/abc825bc-bc30-45f8-b109-1b343fff5c45?ac=777bea0e13cc9c42ceec14aec3ddee2263325dc2c6c699db115f58fe423607ea"
    }
  ],
  "entry": [
    {
      "fullUrl": "https://prescriptionserver.telematik/ChargeItem/abc825bc-bc30-45f8-b109-1b343fff5c45",
      "resource": {
        "resourceType": "ChargeItem",
        "id": "abc825bc-bc30-45f8-b109-1b343fff5c45",
        "meta": {
          "profile": [
            "https://gematik.de/fhir/erpchrg/StructureDefinition/GEM_ERPCHRG_PR_ChargeItem|1.0"
          ]
        },
        "status": "billable",
        "identifier": [
          {
            "system": "https://gematik.de/fhir/erp/NamingSystem/GEM_ERP_NS_PrescriptionId",
            "value": "160.123.456.789.123.58"
          },
          {
            "system": "https://gematik.de/fhir/erp/NamingSystem/GEM_ERP_NS_AccessCode",
            "value": "777bea0e13cc9c42ceec14aec3ddee2263325dc2c6c699db115f58fe423607ea"
          }
        ],
        "extension": [
          {
            "url": "https://gematik.de/fhir/erpchrg/StructureDefinition/GEM_ERPCHRG_EX_MarkingFlag",
            "extension": [
              {
                "url": "insuranceProvider",
                "valueBoolean": false
              },
              {
                "url": "subsidy",
                "valueBoolean": false
              },
              {
                "url": "taxOffice",
                "valueBoolean": false
              }
            ]
          }
        ],
        "enterer": {
          "identifier": {
            "system": "https://gematik.de/fhir/sid/telematik-id",
            "value": "3-15.2.1456789123.191"
          }
        },
        "supportingInformation": [
          {
            "display": "http://fhir.abda.de/eRezeptAbgabedaten/StructureDefinition/DAV-PKV-PR-ERP-AbgabedatenBundle",
            "reference": "Bundle/72bd741c-7ad8-41d8-97c3-9aabbdd0f5b4"
          },
          {
            "display": "https://gematik.de/fhir/erp/StructureDefinition/GEM_ERP_PR_Bundle",
            "reference": "Bundle/160.123.456.789.123.58"
          },
          {
            "display": "https://fhir.kbv.de/StructureDefinition/KBV_PR_ERP_Bundle",
            "reference": "Bundle/0428d416-149e-48a4-977c-394887b3d85c"
          }
        ],
        "code": {
          "coding": [
            {
              "code": "not-applicable",
              "system": "http://terminology.hl7.org/CodeSystem/data-absent-reason"
            }
          ]
        },
        "subject": {
          "identifier": {
            "system": "http://fhir.de/sid/pkv/kvid-10",
            "value": "X234567890"
          }
        },
        "enteredDate": "2022-12-16T06:13:00+05:00"
      },
      "search": {
        "mode": "match"
      }
    },
    {
      "fullUrl": "https://prescriptionserver.telematik/Bundle/a5142020-7b59-4674-9b02-08f68c583610",
      "resource": {
        "resourceType": "Bundle",
        "id": "a5142020-7b59-4674-9b02-08f68c583610",
        "meta": {
          "profile": [
            "http://fhir.abda.de/eRezeptAbgabedaten/StructureDefinition/DAV-PKV-PR-ERP-AbgabedatenBundle|1.1"
          ],
          "tag": [
            {
              "display": "Beispiel RezeptAbgabedatenPKV Bundle (FAM + Noctu + Rezeptänderung)"
            },
            {
              "display": "ACHTUNG! Der fachlich korrekte Inhalt der Beispielinstanz kann nicht gewährleistet werden. Wir sind jederzeit dankbar für Hinweise auf Fehler oder für Verbesserungsvorschläge."
            }
          ]
        },
        "identifier": {
          "system": "https://gematik.de/fhir/erp/NamingSystem/GEM_ERP_NS_PrescriptionId",
          "value": "200.100.000.000.082.87"
        },
        "type": "document",
        "timestamp": "2022-03-25T23:40:00Z",
        "entry": [
          {
            "fullUrl": "urn:uuid:4dc5f425-b9b6-4e39-9166-42668ead6c86",
            "resource": {
              "resourceType": "Composition",
              "id": "4dc5f425-b9b6-4e39-9166-42668ead6c86",
              "meta": {
                "profile": [
                  "http://fhir.abda.de/eRezeptAbgabedaten/StructureDefinition/DAV-PKV-PR-ERP-AbgabedatenComposition|1.1"
                ]
              },
              "status": "final",
              "type": {
                "coding": [
                  {
                    "code": "ERezeptAbgabedaten",
                    "system": "http://fhir.abda.de/eRezeptAbgabedaten/CodeSystem/DAV-CS-ERP-CompositionTypes"
                  }
                ]
              },
              "date": "2022-03-25T23:40:00Z",
              "author": [
                {
                  "reference": "urn:uuid:1fa57d53-812b-4cab-a42e-94a12481108a"
                }
              ],
              "title": "ERezeptAbgabedaten",
              "section": [
                {
                  "title": "Abgabeinformationen",
                  "entry": [
                    {
                      "reference": "urn:uuid:37a647b8-cb89-491a-af0f-f9bffc2b386c"
                    }
                  ]
                },
                {
                  "title": "Apotheke",
                  "entry": [
                    {
                      "reference": "urn:uuid:1fa57d53-812b-4cab-a42e-94a12481108a"
                    }
                  ]
                }
              ]
            }
          },
          {
            "fullUrl": "urn:uuid:1fa57d53-812b-4cab-a42e-94a12481108a",
            "resource": {
              "resourceType": "Organization",
              "id": "1fa57d53-812b-4cab-a42e-94a12481108a",
              "meta": {
                "profile": [
                  "http://fhir.abda.de/eRezeptAbgabedaten/StructureDefinition/DAV-PKV-PR-ERP-Apotheke|1.1"
                ]
              },
              "identifier": [
                {
                  "system": "http://fhir.de/sid/arge-ik/iknr",
                  "value": "123456789"
                }
              ],
              "name": "Adler-Apotheke",
              "address": [
                {
                  "type": "physical",
                  "line": [
                    "Taunusstraße 89"
                  ],
                  "_line": [
                    {
                      "extension": [
                        {
                          "url": "http://hl7.org/fhir/StructureDefinition/iso21090-ADXP-streetName",
                          "valueString": "Taunusstraße"
                        },
                        {
                          "url": "http://hl7.org/fhir/StructureDefinition/iso21090-ADXP-houseNumber",
                          "valueString": "89"
                        }
                      ]
                    }
                  ],
                  "city": "Langen",
                  "postalCode": "63225",
                  "country": "D"
                }
              ]
            }
          },
          {
            "fullUrl": "urn:uuid:37a647b8-cb89-491a-af0f-f9bffc2b386c",
            "resource": {
              "resourceType": "MedicationDispense",
              "id": "37a647b8-cb89-491a-af0f-f9bffc2b386c",
              "meta": {
                "profile": [
                  "http://fhir.abda.de/eRezeptAbgabedaten/StructureDefinition/DAV-PKV-PR-ERP-Abgabeinformationen|1.1"
                ]
              },
              "extension": [
                {
                  "url": "http://fhir.abda.de/eRezeptAbgabedaten/StructureDefinition/DAV-EX-ERP-Abrechnungszeilen",
                  "valueReference": {
                    "reference": "urn:uuid:8a99bfa5-f7aa-4741-99d8-f1abbd301ae1"
                  }
                },
                {
                  "url": "http://fhir.abda.de/eRezeptAbgabedaten/StructureDefinition/DAV-PKV-EX-ERP-AbrechnungsTyp",
                  "valueCodeableConcept": {
                    "coding": [
                      {
                        "code": "1",
                        "system": "http://fhir.abda.de/eRezeptAbgabedaten/CodeSystem/DAV-PKV-CS-ERP-AbrechnungsTyp"
                      }
                    ]
                  }
                }
              ],
              "status": "completed",
              "medicationCodeableConcept": {
                "coding": [
                  {
                    "code": "not-applicable",
                    "system": "http://terminology.hl7.org/CodeSystem/data-absent-reason"
                  }
                ]
              },
              "performer": [
                {
                  "actor": {
                    "reference": "urn:uuid:1fa57d53-812b-4cab-a42e-94a12481108a"
                  }
                }
              ],
              "authorizingPrescription": [
                {
                  "identifier": {
                    "system": "https://gematik.de/fhir/erp/NamingSystem/GEM_ERP_NS_PrescriptionId",
                    "value": "200.100.000.000.082.87"
                  }
                }
              ],
              "type": {
                "coding": [
                  {
                    "code": "Abgabeinformationen",
                    "system": "http://fhir.abda.de/eRezeptAbgabedaten/CodeSystem/DAV-CS-ERP-MedicationDispenseTyp"
                  }
                ]
              },
              "whenHandedOver": "2022-03-25",
              "substitution": {
                "extension": [
                  {
                    "url": "http://fhir.abda.de/eRezeptAbgabedaten/StructureDefinition/DAV-EX-ERP-Rezeptaenderung",
                    "extension": [
                      {
                        "url": "ArtRezeptaenderung",
                        "valueCodeableConcept": {
                          "coding": [
                            {
                              "code": "21",
                              "system": "http://fhir.abda.de/eRezeptAbgabedaten/CodeSystem/DAV-PKV-CS-ERP-ArtRezeptaenderung"
                            }
                          ]
                        }
                      },
                      {
                        "url": "RueckspracheArzt",
                        "valueCodeableConcept": {
                          "coding": [
                            {
                              "code": "2",
                              "system": "http://fhir.abda.de/eRezeptAbgabedaten/CodeSystem/DAV-CS-ERP-RueckspracheArzt"
                            }
                          ]
                        }
                      }
                    ]
                  }
                ],
                "wasSubstituted": true
              }
            }
          },
          {
            "fullUrl": "urn:uuid:8a99bfa5-f7aa-4741-99d8-f1abbd301ae1",
            "resource": {
              "resourceType": "Invoice",
              "id": "8a99bfa5-f7aa-4741-99d8-f1abbd301ae1",
              "meta": {
                "profile": [
                  "http://fhir.abda.de/eRezeptAbgabedaten/StructureDefinition/DAV-PKV-PR-ERP-Abrechnungszeilen|1.1"
                ]
              },
              "status": "issued",
              "type": {
                "coding": [
                  {
                    "code": "Abrechnungszeilen",
                    "system": "http://fhir.abda.de/eRezeptAbgabedaten/CodeSystem/DAV-CS-ERP-InvoiceTyp"
                  }
                ]
              },
              "lineItem": [
                {
                  "sequence": 1,
                  "chargeItemCodeableConcept": {
                    "coding": [
                      {
                        "code": "11514676",
                        "system": "http://fhir.de/CodeSystem/ifa/pzn"
                      }
                    ]
                  },
                  "priceComponent": [
                    {
                      "extension": [
                        {
                          "url": "http://fhir.abda.de/eRezeptAbgabedaten/StructureDefinition/DAV-EX-ERP-MwStSatz",
                          "valueDecimal": 19
                        },
                        {
                          "url": "http://fhir.abda.de/eRezeptAbgabedaten/StructureDefinition/DAV-EX-ERP-KostenVersicherter",
                          "extension": [
                            {
                              "url": "Kategorie",
                              "valueCodeableConcept": {
                                "coding": [
                                  {
                                    "code": "0",
                                    "system": "http://fhir.abda.de/eRezeptAbgabedaten/CodeSystem/DAV-PKV-CS-ERP-KostenVersicherterKategorie"
                                  }
                                ]
                              }
                            },
                            {
                              "url": "Kostenbetrag",
                              "valueMoney": {
                                "value": 0,
                                "currency": "EUR"
                              }
                            }
                          ]
                        }
                      ],
                      "type": "informational",
                      "factor": 2,
                      "amount": {
                        "value": 48.98,
                        "currency": "EUR"
                      }
                    }
                  ]
                },
                {
                  "extension": [
                    {
                      "url": "http://fhir.abda.de/eRezeptAbgabedaten/StructureDefinition/DAV-EX-ERP-Zusatzattribute",
                      "extension": [
                        {
                          "url": "ZusatzattributAbgabeNoctu",
                          "extension": [
                            {
                              "url": "Gruppe",
                              "valueCodeableConcept": {
                                "coding": [
                                  {
                                    "code": "11",
                                    "system": "http://fhir.abda.de/eRezeptAbgabedaten/CodeSystem/DAV-CS-ERP-ZusatzattributGruppe"
                                  }
                                ]
                              }
                            },
                            {
                              "url": "DatumUhrzeit",
                              "valueDateTime": "2022-03-25T23:30:00.0Z"
                            },
                            {
                              "url": "Schluessel",
                              "valueBoolean": true
                            }
                          ]
                        }
                      ]
                    }
                  ],
                  "sequence": 2,
                  "chargeItemCodeableConcept": {
                    "coding": [
                      {
                        "code": "02567018",
                        "system": "http://fhir.de/CodeSystem/ifa/pzn"
                      }
                    ]
                  },
                  "priceComponent": [
                    {
                      "extension": [
                        {
                          "url": "http://fhir.abda.de/eRezeptAbgabedaten/StructureDefinition/DAV-EX-ERP-MwStSatz",
                          "valueDecimal": 19
                        },
                        {
                          "url": "http://fhir.abda.de/eRezeptAbgabedaten/StructureDefinition/DAV-EX-ERP-KostenVersicherter",
                          "extension": [
                            {
                              "url": "Kategorie",
                              "valueCodeableConcept": {
                                "coding": [
                                  {
                                    "code": "0",
                                    "system": "http://fhir.abda.de/eRezeptAbgabedaten/CodeSystem/DAV-PKV-CS-ERP-KostenVersicherterKategorie"
                                  }
                                ]
                              }
                            },
                            {
                              "url": "Kostenbetrag",
                              "valueMoney": {
                                "value": 0,
                                "currency": "EUR"
                              }
                            }
                          ]
                        }
                      ],
                      "type": "informational",
                      "factor": 1,
                      "amount": {
                        "value": 2.5,
                        "currency": "EUR"
                      }
                    }
                  ]
                }
              ],
              "totalGross": {
                "extension": [
                  {
                    "url": "http://fhir.abda.de/eRezeptAbgabedaten/StructureDefinition/DAV-EX-ERP-Gesamtzuzahlung",
                    "valueMoney": {
                      "value": 0,
                      "currency": "EUR"
                    }
                  }
                ],
                "value": 51.48,
                "currency": "EUR"
              }
            }
          }
        ]
      },
      "search": {
        "mode": "include"
      }
    }
  ]
}
