{
  "resourceType": "Bundle",
  "id": "fb3afd96-d689-11ec-9d64-0242ac120002",
  "type": "collection",
  "link": [
    {
      "url": "https://erp.app.ti-dienste.de/ChargeItem/abc825bc-bc30-45f8-b109-1b343fff5c45",
      "relation": "self"
    }
  ],
  "entry": [
    {
      "fullUrl": "abc825bc-bc30-45f8-b109-1b343fff5c45",
      "resourceType": "ChargeItem",
      "id": "abc825bc-bc30-45f8-b109-1b343fff5c45",
      "meta": {
        "profile": [
          "https://gematik.de/fhir/erpchrg/StructureDefinition/GEM_ERPCHRG_PR_ChargeItem|1.0"
        ]
      },
      "status": "billable",
      "extension": [
        {
          "url": "https://gematik.de/fhir/erpchrg/StructureDefinition/GEM_ERPCHRG_EX_MarkingFlag",
          "extension": [
            {
              "url": "insuranceProvider",
              "valueBoolean": false
            },
            {
              "url": "subsidy",
              "valueBoolean": false
            },
            {
              "url": "taxOffice",
              "valueBoolean": false
            }
          ]
        }
      ],
      "enterer": {
        "identifier": {
          "system": "https://gematik.de/fhir/sid/telematik-id",
          "value": "606358757"
        }
      },
      "identifier": [
        {
          "system": "https://gematik.de/fhir/erp/NamingSystem/GEM_ERP_NS_PrescriptionId",
          "value": "160.123.456.789.123.58"
        },
        {
          "system": "https://gematik.de/fhir/erp/NamingSystem/GEM_ERP_NS_AccessCode",
          "value": "777bea0e13cc9c42ceec14aec3ddee2263325dc2c6c699db115f58fe423607ea"
        }
      ],
      "code": {
        "coding": [
          {
            "code": "not-applicable",
            "system": "http://terminology.hl7.org/CodeSystem/data-absent-reason"
          }
        ]
      },
      "subject": {
        "identifier": {
          "value": "X234567890",
          "assigner": {
            "display": "Name einer privaten Krankenversicherung"
          }
        }
      },
      "enteredDate": "2021-06-01T07:13:00+05:00",
      "supportingInformation": [
        {
          "reference": "160.123.456.789.123.58",
          "display": "Quittung",
          "type": "GEM_ERP_PR_Bundle"
        }
      ]
    },    
    {
      "fullUrl": "160.123.456.789.123.58",
      "resource": {
        "resourceType": "Bundle",
        "id": "160.123.456.789.123.58",
        "meta": {
          "profile": [
            "https://gematik.de/fhir/erp/StructureDefinition/GEM_ERP_PR_Bundle|1.2"
          ],
          "tag": [
            {
              "display": "Receipt Bundle 'Quittung' for completed dispensation of a prescription"
            }
          ]
        },
        "type": "document",
        "identifier": {
          "system": "https://gematik.de/fhir/erp/NamingSystem/GEM_ERP_NS_PrescriptionId",
          "value": "160.000.033.491.280.78"
        },
        "timestamp": "2022-03-18T15:28:00+00:00",
        "entry": [
          {
            "fullUrl": "urn:uuid:c624cf47-e235-4624-af71-0a09dc9254dc",
            "resource": {
              "resourceType": "Composition",
              "id": "c624cf47-e235-4624-af71-0a09dc9254dc",
              "meta": {
                "profile": [
                  "https://gematik.de/fhir/erp/StructureDefinition/GEM_ERP_PR_Composition|1.2"
                ]
              },
              "status": "final",
              "title": "Quittung",
              "extension": [
                {
                  "url": "https://gematik.de/fhir/erp/StructureDefinition/GEM_ERP_EX_Beneficiary",
                  "valueIdentifier": {
                    "system": "https://gematik.de/fhir/sid/telematik-id",
                    "value": "3-SMC-B-Testkarte-883110000129070"
                  }
                }
              ],
              "type": {
                "coding": [
                  {
                    "code": "3",
                    "system": "https://gematik.de/fhir/erp/CodeSystem/GEM_ERP_CS_DocumentType",
                    "display": "Receipt"
                  }
                ]
              },
              "date": "2022-03-18T15:29:00+00:00",
              "author": [
                {
                  "reference": "https://erp.zentral.erp.splitdns.ti-dienste.de/Device/1"
                }
              ],
              "event": [
                {
                  "period": {
                    "start": "2022-03-18T15:28:00+00:00",
                    "end": "2022-03-18T15:29:00+00:00"
                  }
                }
              ],
              "section": [
                {
                  "entry": [
                    {
                      "reference": "Binary/PrescriptionDigest-160.123.456.789.123.58"
                    }
                  ]
                }
              ]
            }
          },
          {
            "fullUrl": "https://erp.zentral.erp.splitdns.ti-dienste.de/Device/1",
            "resource": {
              "resourceType": "Device",
              "id": "1",
              "meta": {
                "profile": [
                  "https://gematik.de/fhir/erp/StructureDefinition/GEM_ERP_PR_Device|1.2"
                ]
              },
              "status": "active",
              "serialNumber": "1.4.0",
              "deviceName": [
                {
                  "name": "E-Rezept-Fachdienst",
                  "type": "user-friendly-name"
                }
              ],
              "version": [
                {
                  "value": "1.4.0"
                }
              ],
              "contact": [
                {
                  "system": "email",
                  "value": "betrieb@gematik.de"
                }
              ]
            }
          },
          {
            "fullUrl": "https://erp.zentral.erp.splitdns.ti-dienste.de/Task/160.000.080.761.527.39/PrescriptionDigest-160.123.456.789.123.58",
            "resource": {
              "resourceType": "Binary",
              "id": "PrescriptionDigest-160.123.456.789.123.58",
              "meta": {
                "profile": [
                  "https://gematik.de/fhir/erp/StructureDefinition/GEM_ERP_PR_Digest"
                ]
              },
              "contentType": "application/octet-stream",
              "data": "tJg8c5ZtdhzEEhJ0ZpAsUVFx5dKuYgQFs5oKgthi17M="
            }
          }
        ],
        "signature": {
          "type": [
            {
              "system": "urn:iso-astm:E1762-95:2013",
              "code": "1.2.840.10065.1.12.1.1"
            }
          ],
          "when": "2022-03-18T15:28:00+00:00",
          "who": {
            "reference": "https://erp.zentral.erp.splitdns.ti-dienste.de/Device/1"
          },
          "sigFormat": "application/pkcs7-mime",
          "data": "MIII FQYJ KoZI hvcN AQcC oIII BjCC CAIC AQEx DzAN Bglg hkgB ZQME AgEF ADAL"
        }
      }
    }
  ]
}
